File: data/20220309_(Form02C)EIS_charging_10bis16V_step_01V+(1C+EIS)50cycle_17_GEIS_C08.mpt
EC-Lab ASCII FILE
Nb header lines : 121

Galvano Electrochemical Impedance Spectroscopy

Run on channel : 8 (SN 14384)
User :
CE vs. WE compliance from -10 V to 10 V
Electrode connection : standard
Potential control : Ewe-Ece
Ewe ctrl range : min = 0,00 V, max = 5,00 V
Safety Limits :
	Do not start on E overload
Acquisition started on : 03/09/2022 13:55:05.456
Technique started on : 03/10/2022 07:32:47.091
Loaded Setting File :  C:\DATA\x_Data_VMP3\Extern\InES\Binbin\001_Testing_Profiles\20220308_(Form02C)EIS_charging_10bis16V_step_01V+(1C+EIS)50cycle.mps
Saved on :
	File : 20220309_(Form02C)EIS_charging_10bis16V_step_01V+(1C+EIS)50cycle_17_GEIS_C08.mpr
	Directory : C:\DATA\x_Data_VMP3\Extern\InES\Binbin\20220309_SSB_Cell_03_Form01\
	Host : 134.169.45.143
Device : VMP3 (SN 0787)
Address : 134.169.45.150
EC-Lab for windows v11.42 (software)
Internet server v11.40 (firmware)
Command interpretor v11.40 (firmware)
Electrode material :
Initial state :
Electrolyte :
Comments :
Electrode surface area : 0,000 cm²
Characteristic mass : 0,001 g
Equivalent Weight : 0,000 g/eq.
Density : 0,000 g/cm3
Volume (V) : 0,001 cm³
Record Ece
Record Power
Cycle Definition : Charge/Discharge alternance
Mode                Single sine
Is                  0,000
unit Is             µA
vs.                 <None>
tIs (h:m:s)         0:00:0,0000
record              0
dE (mV)             0,000
dt (s)              0,000
fi                  1,000
unit fi             MHz
ff                  5,000
unit ff             mHz
Nd                  6
Points              per decade
spacing             Logarithmic
Ia/Va               Ia
Ia                  5,000
unit  Ia            µA
va pourcent         0,10
pw                  0,10
Na                  2
corr                0
E range min (V)     0,000
E range max (V)     5,000
I Range             10 µA
Bandwidth           5
nc cycles           0
goto Ns'            0
nr cycles           0
inc. cycle          0

Number of loops : 50
Loop 0 from point number 0 to 49
Loop 1 from point number 50 to 99
Loop 2 from point number 100 to 149
Loop 3 from point number 150 to 199
Loop 4 from point number 200 to 249
Loop 5 from point number 250 to 299
Loop 6 from point number 300 to 349
Loop 7 from point number 350 to 399
Loop 8 from point number 400 to 449
Loop 9 from point number 450 to 499
Loop 10 from point number 500 to 549
Loop 11 from point number 550 to 599
Loop 12 from point number 600 to 649
Loop 13 from point number 650 to 699
Loop 14 from point number 700 to 749
Loop 15 from point number 750 to 799
Loop 16 from point number 800 to 849
Loop 17 from point number 850 to 899
Loop 18 from point number 900 to 949
Loop 19 from point number 950 to 999
Loop 20 from point number 1000 to 1049
Loop 21 from point number 1050 to 1099
Loop 22 from point number 1100 to 1149
Loop 23 from point number 1150 to 1199
Loop 24 from point number 1200 to 1249
Loop 25 from point number 1250 to 1299
Loop 26 from point number 1300 to 1349
Loop 27 from point number 1350 to 1399
Loop 28 from point number 1400 to 1449
Loop 29 from point number 1450 to 1499
Loop 30 from point number 1500 to 1549
Loop 31 from point number 1550 to 1599
Loop 32 from point number 1600 to 1649
Loop 33 from point number 1650 to 1699
Loop 34 from point number 1700 to 1749
Loop 35 from point number 1750 to 1799
Loop 36 from point number 1800 to 1849
Loop 37 from point number 1850 to 1899
Loop 38 from point number 1900 to 1949
Loop 39 from point number 1950 to 1999
Loop 40 from point number 2000 to 2049
Loop 41 from point number 2050 to 2099
Loop 42 from point number 2100 to 2149
Loop 43 from point number 2150 to 2199
Loop 44 from point number 2200 to 2249
Loop 45 from point number 2250 to 2299
Loop 46 from point number 2300 to 2349
Loop 47 from point number 2350 to 2399
Loop 48 from point number 2400 to 2449
Loop 49 from point number 2450 to 2499

freq/Hz	Re(Z)/Ohm	-Im(Z)/Ohm	|Z|/Ohm	Phase(Z)/deg	time/s	<Ewe>/V	<I>/mA	Cs/µF	Cp/µF	cycle number	|Ewe|/V	|I|/A	Ns	I Range	(Q-Qo)/mA.h	<Ece>/V	|Ece|/V	Phase(Zce)/deg	|Zce|/Ohm	Re(Zce)/Ohm	-Im(Zce)/Ohm	Phase(Zwe-ce)/deg	|Zwe-ce|/Ohm	Re(Zwe-ce)/Ohm	-Im(Zwe-ce)/Ohm	P/W	Re(Y)/Ohm-1	Im(Y)/Ohm-1	|Y|/Ohm-1	Phase(Y)/deg	dq/mA.h
1,0000186E+006	-2,9241573E+001	4,5741653E+001	5,4289673E+001	-1,2258984E+002	6,346163503756979E+004	1,3571516E+001	1,2807947E-005	3,4793667E-003	2,4699576E-003	1,000000000000000E+000	2,8144199E-004	5,1840798E-006	0	14	1,500449503134228E-009	1,3447320E+001	1,8069781E-004	4,3205238E+001	3,4856293E+001	2,5406961E+001	-2,3863098E+001	-9,9941147E+001	2,2212055E+001	-3,8346119E+000	2,1878555E+001	0,0000000E+000	-9,9212481E-003	1,5519489E-002	1,8419709E-002	1,2258984E+002	1,500449503134228E-009
5,8157570E+001	9,2359562E+000	8,4608078E+000	1,2525500E+001	-4,2491947E+001	6,347202403809223E+004	1,3571626E+001	6,7395108E-006	3,2344620E+002	1,4758273E+002	1,000000000000000E+000	5,9675222E-005	4,7642984E-006	0	14	3,907874291521946E-008	1,3439903E+001	2,0351710E-002	-1,7849527E+001	4,2717119E+003	4,0660920E+003	1,3093575E+003	-1,7919392E+001	4,2830996E+003	4,0753279E+003	1,3178184E+003	0,0000000E+000	5,8869686E-002	5,3928908E-002	7,9837129E-002	4,2491947E+001	5,489625355898576E-009
1,0000186E+006	-2,7784161E+001	4,7274139E+001	5,4834332E+001	-1,2044379E+002	8,527282703696226E+004	1,3574283E+001	1,3990981E-005	3,3665760E-003	2,5022493E-003	2,000000000000000E+000	2,8159309E-004	5,1353427E-006	0	14	1,317871539381738E-009	1,3454617E+001	1,7685849E-004	4,0688492E+001	3,4439472E+001	2,6114256E+001	-2,2452681E+001	-9,3848869E+001	2,4877567E+001	-1,6699047E+000	2,4821459E+001	0,0000000E+000	-9,2404298E-003	1,5722390E-002	1,8236751E-002	1,2044379E+002	0,000000000000000E+000
5,8157570E+001	5,2001071E+000	-3,3054833E+000	6,1617637E+000	3,2442356E+001	8,528308403803210E+004	1,3574149E+001	6,3819853E-006	-8,2790192E+002	-2,3825322E+002	2,000000000000000E+000	2,9372808E-005	4,7669482E-006	0	14	6,396836057404522E-008	1,3453494E+001	2,0827109E-002	-1,7495968E+001	4,3690654E+003	4,1669443E+003	1,3135101E+003	-1,7434179E+001	4,3730342E+003	4,1721445E+003	1,3102046E+003	0,0000000E+000	1,3696267E-001	-8,7061249E-002	1,6229120E-001	-3,2442356E+001	5,226956607670115E-009
1,0000186E+006	-2,9914331E+001	4,6867123E+001	5,5600311E+001	-1,2254926E+002	1,062353059275872E+005	1,3578250E+001	1,1774567E-005	3,3958131E-003	2,4128256E-003	3,000000000000000E+000	2,9038376E-004	5,2227001E-006	0	14	1,762545777977051E-009	1,3477388E+001	1,8984878E-004	4,3033569E+001	3,6350697E+001	2,6570686E+001	-2,4806686E+001	-9,8618584E+001	2,2312391E+001	-3,3436451E+000	2,2060436E+001	0,0000000E+000	-9,6766474E-003	1,5160512E-002	1,7985512E-002	1,2254926E+002	0,000000000000000E+000
5,8157570E+001	9,1731682E+000	-4,4539924E+000	1,0197307E+001	2,5898691E+001	1,062456919286707E+005	1,3577882E+001	6,5786567E-006	-6,1441870E+002	-1,1721748E+002	3,000000000000000E+000	4,8572172E-005	4,7632352E-006	0	14	1,388700782692669E-008	1,3490859E+001	1,9233804E-002	-1,5556779E+001	4,0379707E+003	3,8900403E+003	1,0829562E+003	-1,5461168E+001	4,0456189E+003	3,8992134E+003	1,0785022E+003	0,0000000E+000	8,8216208E-002	-4,2833000E-002	9,8065108E-002	-2,5898691E+001	-2,135972276695006E-009
1,0000186E+006	-3,1134310E+001	4,7350140E+001	5,6669048E+001	-1,2332626E+002	1,253144118637876E+005	1,3576237E+001	1,2622095E-005	3,3611725E-003	2,3466132E-003	4,000000000000000E+000	2,9045876E-004	5,1255274E-006	0	14	1,506693769627532E-009	1,3462996E+001	1,7754806E-004	4,2202839E+001	3,4639961E+001	2,5660290E+001	-2,3269648E+001	-1,0280694E+002	2,4694838E+001	-5,4740200E+000	2,4080492E+001	0,0000000E+000	-9,6949898E-003	1,4744478E-002	1,7646316E-002	1,2332626E+002	0,000000000000000E+000
5,8157570E+001	1,1140127E+001	-1,8419504E-001	1,1141650E+001	9,4726354E-001	1,253247998648710E+005	1,3576016E+001	6,6058997E-006	-1,4857165E+004	-4,0606241E+000	4,000000000000000E+000	5,3091328E-005	4,7651224E-006	0	14	5,153785602409597E-008	1,3438741E+001	2,1908486E-002	-1,6454092E+001	4,5976753E+003	4,4093867E+003	1,3022777E+003	-1,6412663E+001	4,6083081E+003	4,4205269E+003	1,3020935E+003	0,0000000E+000	8,9741051E-002	-1,4838121E-003	8,9753315E-002	-9,4726354E-001	2,224042073294185E-009
1,0000186E+006	-2,7422461E+001	4,6287163E+001	5,3800491E+001	-1,2064428E+002	1,439926073722914E+005	1,3572601E+001	1,0939353E-005	3,4383615E-003	2,5450725E-003	5,000000000000000E+000	2,7751125E-004	5,1581546E-006	0	14	1,116974776948609E-009	1,3452171E+001	1,9719216E-004	4,0134357E+001	3,8229206E+001	2,9227566E+001	-2,4641867E+001	-8,5232864E+001	2,1720434E+001	1,8051052E+000	2,1645296E+001	0,0000000E+000	-9,4740111E-003	1,5991459E-002	1,8587191E-002	1,2064428E+002	0,000000000000000E+000
5,8157570E+001	1,4914102E+001	5,1102409E+000	1,5765309E+001	-1,8913763E+001	1,440029953733748E+005	1,3572768E+001	5,9904969E-006	5,3551605E+002	5,6266544E+001	5,000000000000000E+000	7,5117729E-005	4,7647482E-006	0	14	-1,584601082526326E-009	1,3450127E+001	2,3165094E-002	-1,7031223E+001	4,8617666E+003	4,6485552E+003	1,4239764E+003	-1,7037308E+001	4,8775234E+003	4,6634692E+003	1,4290867E+003	0,0000000E+000	6,0005642E-002	2,0560628E-002	6,3430406E-002	1,8913763E+001	5,360309322681821E-009
1,0000186E+006	-2,8425299E+001	4,6672691E+001	5,4647396E+001	-1,2134287E+002	1,625362178049281E+005	1,3573331E+001	1,1898467E-005	3,4099596E-003	2,4873447E-003	6,000000000000000E+000	2,8160648E-004	5,1531547E-006	0	14	1,752932675243654E-009	1,3449485E+001	1,8937362E-004	4,0724941E+001	3,6749065E+001	2,7850294E+001	-2,3976133E+001	-9,1451248E+001	2,2703840E+001	-5,7500458E-001	2,2696558E+001	0,0000000E+000	-9,5184473E-003	1,5628738E-002	1,8299134E-002	1,2134287E+002	0,000000000000000E+000
5,8157570E+001	1,3427288E+001	5,9782653E+000	1,4698018E+001	-2,4000183E+001	1,625466068060119E+005	1,3573296E+001	6,7574224E-006	4,5776089E+002	7,5730621E+001	6,000000000000000E+000	7,0091271E-005	4,7687568E-006	0	14	1,557250242328539E-008	1,3421262E+001	2,4106108E-002	-1,7385447E+001	5,0550088E+003	4,8240771E+003	1,5104286E+003	-1,7404583E+001	5,0696094E+003	4,8375044E+003	1,5164069E+003	0,0000000E+000	6,2154241E-002	2,7673090E-002	6,8036385E-002	2,4000183E+001	1,500022572939328E-009
1,0000186E+006	-2,8760729E+001	4,5556534E+001	5,3875572E+001	-1,2226501E+002	1,806639559724960E+005	1,3583091E+001	1,1912276E-005	3,4935053E-003	2,4979224E-003	7,000000000000000E+000	2,8273204E-004	5,2478708E-006	0	14	1,106268642546285E-009	1,3454056E+001	1,9505298E-004	4,1045517E+001	3,7168022E+001	2,8031683E+001	-2,4406693E+001	-9,1974236E+001	2,1162403E+001	-7,2904587E-001	2,1149841E+001	0,0000000E+000	-9,9086855E-003	1,5695201E-002	1,8561287E-002	1,2226501E+002	0,000000000000000E+000
5,8157570E+001	1,4830727E+001	9,4894028E-001	1,4861054E+001	-3,6610651E+000	1,806743429735794E+005	1,3582837E+001	7,6601791E-006	2,8838652E+003	1,1758543E+001	7,000000000000000E+000	7,0804308E-005	4,7644203E-006	0	14	4,558454855100536E-008	1,3427636E+001	2,4711147E-002	-1,7806459E+001	5,1866011E+003	4,9381367E+003	1,5860764E+003	-1,7766453E+001	5,2010127E+003	4,9529673E+003	1,5870254E+003	0,0000000E+000	6,7152657E-002	4,2967456E-003	6,7289978E-002	3,6610651E+000	1,348471934055419E-009
1,0000186E+006	-2,9659893E+001	4,4119873E+001	5,3162697E+001	-1,2391124E+002	1,985583707035603E+005	1,3577672E+001	1,1672310E-005	3,6072631E-003	2,4844618E-003	8,000000000000000E+000	2,7453236E-004	5,1640036E-006	0	14	2,646544235717801E-009	1,3447481E+001	1,9168721E-004	4,3095558E+001	3,7119884E+001	2,7105507E+001	-2,5360941E+001	-9,7754219E+001	1,8932047E+001	-2,5543861E+000	1,8758932E+001	0,0000000E+000	-1,0494350E-002	1,5610624E-002	1,8810183E-002	1,2391124E+002	0,000000000000000E+000
5,8157570E+001	1,5626730E+001	4,0291405E+000	1,6137802E+001	-1,4458042E+001	1,985687567046438E+005	1,3577325E+001	6,3674293E-006	6,7920593E+002	4,2338699E+001	8,000000000000000E+000	7,6962526E-005	4,7690837E-006	0	14	4,749893381803203E-008	1,3418255E+001	2,5152469E-002	-1,8004202E+001	5,2740674E+003	5,0158164E+003	1,6301444E+003	-1,7993393E+001	5,2901743E+003	5,0314434E+003	1,6341736E+003	0,0000000E+000	6,0003880E-002	1,5471187E-002	6,1966307E-002	1,4458042E+001	1,065073596031935E-009
1,0000186E+006	-2,9140537E+001	4,4685898E+001	5,3347919E+001	-1,2310915E+002	2,163710178218246E+005	1,3575105E+001	1,2030579E-005	3,5615708E-003	2,4988926E-003	9,000000000000000E+000	2,7587582E-004	5,1712573E-006	0	14	2,037415549084345E-009	1,3440825E+001	1,9459259E-004	4,4561657E+001	3,7629646E+001	2,6810965E+001	-2,6403835E+001	-9,7261719E+001	1,8429886E+001	-2,3295727E+000	1,8282063E+001	0,0000000E+000	-1,0239119E-002	1,5701296E-002	1,8744873E-002	1,2310915E+002	0,000000000000000E+000
5,8157570E+001	1,3344866E+001	-4,6128883E+000	1,4119638E+001	1,9068611E+001	2,163814068229083E+005	1,3574287E+001	6,2752465E-006	-5,9325433E+002	-6,3319820E+001	9,000000000000000E+000	6,7302164E-005	4,7665644E-006	0	14	3,298494294986338E-008	1,3444314E+001	2,5479723E-002	-1,8242161E+001	5,3455112E+003	5,0768564E+003	1,6733260E+003	-1,8150620E+001	5,3567480E+003	5,0902012E+003	1,6687131E+003	0,0000000E+000	6,6937126E-002	-2,3137998E-002	7,0823342E-002	-1,9068611E+001	4,895245169703028E-009
1,0000186E+006	-2,8221638E+001	4,5902691E+001	5,3884300E+001	-1,2158380E+002	2,340126825133413E+005	1,3574425E+001	1,2862433E-005	3,4671603E-003	2,5160874E-003	1,000000000000000E+001	2,7839511E-004	5,1665347E-006	0	14	2,133780800521537E-009	1,3435734E+001	1,8920581E-004	4,4601349E+001	3,6621414E+001	2,6074795E+001	-2,5714453E+001	-9,6070091E+001	2,0302067E+001	-2,1468430E+000	2,0188238E+001	0,0000000E+000	-9,7198086E-003	1,5809337E-002	1,8558281E-002	1,2158380E+002	0,000000000000000E+000
5,8157570E+001	7,7613735E+000	-5,3220215E+000	9,4107828E+000	3,4438671E+001	2,340230715144249E+005	1,3574351E+001	6,5084982E-006	-5,1420612E+002	-1,6445193E+002	1,000000000000000E+001	4,4875207E-005	4,7684880E-006	0	14	4,802865345365919E-008	1,3414286E+001	2,6079491E-002	-1,8660498E+001	5,4691323E+003	5,1816260E+003	1,7499030E+003	-1,8581741E+001	5,4747881E+003	5,1893872E+003	1,7445809E+003	0,0000000E+000	8,7636918E-002	-6,0093172E-002	1,0626109E-001	-3,4438671E+001	4,886644404880116E-009
1,0000186E+006	-2,8938042E+001	4,6544224E+001	5,4806705E+001	-1,2187054E+002	2,519266816474693E+005	1,3574517E+001	1,0927038E-005	3,4193713E-003	2,4660989E-003	1,100000000000000E+001	2,8726071E-004	5,2413425E-006	0	14	1,663667096057648E-009	1,3439022E+001	1,7817609E-004	4,4915981E+001	3,3994362E+001	2,4072866E+001	-2,4002369E+001	-1,0217924E+002	2,3060902E+001	-4,8651752E+000	2,2541855E+001	0,0000000E+000	-9,6338913E-003	1,5495243E-002	1,8245943E-002	1,2187054E+002	0,000000000000000E+000
5,8157570E+001	1,6102867E+001	1,8795958E+000	1,6212193E+001	-6,6576824E+000	2,519370686485530E+005	1,3574312E+001	6,4540150E-006	1,4559598E+003	1,9570181E+001	1,100000000000000E+001	7,7271994E-005	4,7662888E-006	0	14	3,837427869181435E-008	1,3410076E+001	2,6072582E-002	-1,8524635E+001	5,4702061E+003	5,1867788E+003	1,7379521E+003	-1,8489817E+001	5,4860728E+003	5,2028818E+003	1,7398318E+003	0,0000000E+000	6,1266020E-002	7,1512330E-003	6,1681971E-002	6,6576824E+000	3,335251018648304E-009
1,0000186E+006	-2,7401838E+001	4,7159912E+001	5,4542809E+001	-1,2015834E+002	2,695412272668136E+005	1,3581507E+001	1,3519633E-005	3,3747302E-003	2,5229582E-003	1,200000000000000E+001	2,8347602E-004	5,1973125E-006	0	14	1,882858623733657E-009	1,3447521E+001	1,9389238E-004	4,2611336E+001	3,7306278E+001	2,7456045E+001	-2,5257156E+001	-8,9858200E+001	2,1902822E+001	5,4206848E-002	2,1902756E+001	0,0000000E+000	-9,2109563E-003	1,5852509E-002	1,8334223E-002	1,2015834E+002	0,000000000000000E+000
5,8157570E+001	9,8571892E+000	-1,5964748E+000	9,9856348E+000	9,1997652E+000	2,695516152678970E+005	1,3581303E+001	6,5234312E-006	-1,7141617E+003	-4,3815178E+001	1,200000000000000E+001	4,7589059E-005	4,7657522E-006	0	14	2,803315360991595E-008	1,3470292E+001	2,5797160E-002	-1,8192356E+001	5,4130303E+003	5,1424531E+003	1,6899923E+003	-1,8143806E+001	5,4218984E+003	5,1523105E+003	1,6883959E+003	0,0000000E+000	9,8855697E-002	-1,6010713E-002	1,0014386E-001	-9,1997652E+000	-2,598244886087459E-011
1,0000186E+006	-2,6877190E+001	4,6730122E+001	5,3908142E+001	-1,1990569E+002	2,871043871005578E+005	1,3577126E+001	1,4871724E-005	3,4057687E-003	2,5591766E-003	1,300000000000000E+001	2,7656491E-004	5,1302995E-006	0	14	1,282378627128840E-009	1,3445757E+001	1,8324637E-004	4,4534794E+001	3,5718456E+001	2,5460997E+001	-2,5050863E+001	-9,3737526E+001	2,1725466E+001	-1,4161930E+000	2,1679258E+001	0,0000000E+000	-9,2485817E-003	1,6080080E-002	1,8550074E-002	1,1990569E+002	0,000000000000000E+000
5,8157570E+001	1,8219305E+000	4,3441725E+000	4,7107606E+000	-6,7246994E+001	2,871146441016272E+005	1,3576695E+001	7,6919050E-006	6,2995105E+002	5,3572125E+002	1,300000000000000E+001	2,2447461E-005	4,7651456E-006	0	14	8,450437723392194E-010	1,3465321E+001	2,5775712E-002	-1,7895452E+001	5,4092183E+003	5,1475137E+003	1,6621505E+003	-1,7933290E+001	5,4122881E+003	5,1493354E+003	1,6664946E+003	0,0000000E+000	8,2101256E-002	1,9576046E-001	2,1227995E-001	6,7246994E+001	1,510608177480006E-009
1,0000186E+006	-2,8056091E+001	4,5348225E+001	5,3325470E+001	-1,2174430E+002	3,045585894153845E+005	1,3576307E+001	1,1178571E-005	3,5095529E-003	2,5380664E-003	1,400000000000000E+001	2,7936979E-004	5,2389560E-006	0	14	2,699572256028028E-009	1,3442670E+001	1,9421743E-004	4,4873631E+001	3,7071781E+001	2,6271461E+001	-2,6155827E+001	-9,5312447E+001	1,9275192E+001	-1,7846298E+000	1,9192398E+001	0,0000000E+000	-9,8663801E-003	1,5947437E-002	1,8752765E-002	1,2174430E+002	0,000000000000000E+000
5,8157570E+001	9,9259605E+000	-1,9709691E+000	1,0119754E+001	1,1230968E+001	3,045689774164679E+005	1,3576021E+001	6,4293854E-006	-1,3884622E+003	-5,2668842E+001	1,400000000000000E+001	4,8268488E-005	4,7697295E-006	0	14	1,405473204238206E-008	1,3426914E+001	2,5832644E-002	-1,8011843E+001	5,4159556E+003	5,1505337E+003	1,6746869E+003	-1,7959629E+001	5,4247876E+003	5,1604595E+003	1,6727159E+003	0,0000000E+000	9,6924298E-002	-1,9245973E-002	9,8816633E-002	-1,1230968E+001	-2,416662761308747E-009
1,0000186E+006	-2,7892145E+001	4,7329945E+001	5,4937195E+001	-1,2051139E+002	3,219456167803593E+005	1,3574529E+001	1,2919906E-005	3,3626067E-003	2,4958306E-003	1,500000000000000E+001	2,8283155E-004	5,1482707E-006	0	14	2,007947003769396E-009	1,3442830E+001	1,8371483E-004	4,1772034E+001	3,5684765E+001	2,6613743E+001	-2,3772066E+001	-9,3106194E+001	2,3592541E+001	-1,2784023E+000	2,3557878E+001	0,0000000E+000	-9,2416378E-003	1,5682058E-002	1,8202605E-002	1,2051139E+002	0,000000000000000E+000
5,8157570E+001	5,1703777E+000	6,7532191E+000	8,5052204E+000	-5,2561726E+001	3,219560047814432E+005	1,3574601E+001	6,8387758E-006	4,0523135E+002	2,5547804E+002	1,500000000000000E+001	4,0563151E-005	4,7692060E-006	0	14	9,288986077333700E-009	1,3462234E+001	2,5851076E-002	-1,7791885E+001	5,4204150E+003	5,1611709E+003	1,6562644E+003	-1,7843088E+001	5,4274038E+003	5,1663413E+003	1,6630176E+003	0,0000000E+000	7,1474500E-002	9,3355455E-002	1,1757485E-001	5,2561726E+001	-2,797199683300278E-009
1,0000186E+006	-3,0874207E+001	4,5012512E+001	5,4583359E+001	-1,2444633E+002	3,391631862715910E+005	1,3574807E+001	1,1953328E-005	3,5357277E-003	2,4045000E-003	1,600000000000000E+001	2,8219196E-004	5,1699267E-006	0	14	1,320724646512240E-009	1,3441948E+001	1,9830593E-004	4,2367619E+001	3,8357590E+001	2,8339979E+001	-2,5848602E+001	-9,7533058E+001	1,9330746E+001	-2,5342274E+000	1,9163910E+001	0,0000000E+000	-1,0362756E-002	1,5108200E-002	1,8320601E-002	1,2444633E+002	0,000000000000000E+000
5,8157570E+001	4,9947709E-001	5,2879462E+000	5,3114829E+000	-8,4604088E+001	3,391735742726745E+005	1,3574552E+001	6,5812760E-006	5,1751965E+002	5,1294324E+002	1,600000000000000E+001	2,5320805E-005	4,7671820E-006	0	14	4,116519811683854E-008	1,3411961E+001	2,6232822E-002	-1,8022264E+001	5,5027944E+003	5,2328071E+003	1,7024906E+003	-1,8072994E+001	5,5049072E+003	5,2333066E+003	1,7077786E+003	0,0000000E+000	1,7704526E-002	1,8743706E-001	1,8827134E-001	8,4604088E+001	1,696197873772895E-009
1,0000186E+006	-2,9278208E+001	4,6502186E+001	5,4951496E+001	-1,2219490E+002	3,565441470410936E+005	1,3581861E+001	1,4529130E-005	3,4224624E-003	2,4509046E-003	1,700000000000000E+001	2,8585107E-004	5,2018795E-006	0	14	1,427110246079148E-009	1,3451169E+001	1,9298847E-004	4,1097198E+001	3,7099758E+001	2,7958212E+001	-2,4387094E+001	-9,3415794E+001	2,2154449E+001	-1,3199959E+000	2,2115091E+001	0,0000000E+000	-9,6958410E-003	1,5399773E-002	1,8197866E-002	1,2219490E+002	0,000000000000000E+000
5,8157570E+001	5,1137042E+000	-7,0617924E+000	8,7188807E+000	5,4090317E+001	3,565545350421774E+005	1,3581587E+001	6,5767890E-006	-3,8752429E+002	-2,5421861E+002	1,700000000000000E+001	4,1556410E-005	4,7662552E-006	0	14	7,890999544558023E-008	1,3467085E+001	2,5769483E-002	-1,7765903E+001	5,4066519E+003	5,1488149E+003	1,6497242E+003	-1,7678144E+001	5,4093735E+003	5,1539287E+003	1,6426625E+003	0,0000000E+000	6,7268871E-002	-9,2895240E-002	1,1469362E-001	-5,4090317E+001	-3,333608833877906E-009
1,0000186E+006	-2,6011087E+001	4,5976578E+001	5,2824448E+001	-1,1949886E+002	3,737185105645070E+005	1,3577150E+001	1,5048619E-005	3,4615882E-003	2,6222782E-003	1,800000000000000E+001	2,7244893E-004	5,1576294E-006	0	14	7,645091495318310E-010	1,3443512E+001	1,9463518E-004	4,2970501E+001	3,7737335E+001	2,7612587E+001	-2,5722588E+001	-8,5478981E+001	2,0317207E+001	1,6014996E+000	2,0253990E+001	0,0000000E+000	-9,3215583E-003	1,6476566E-002	1,8930629E-002	1,1949886E+002	0,000000000000000E+000
5,8157570E+001	1,6379435E+001	1,6887605E+000	1,6466263E+001	-5,8865380E+000	3,737288995655905E+005	1,3577202E+001	7,1216605E-006	1,6204880E+003	1,7044798E+001	1,800000000000000E+001	7,8485842E-005	4,7664635E-006	0	14	3,458460127210275E-008	1,3436055E+001	2,6027555E-002	-1,7937111E+001	5,4605591E+003	5,1951494E+003	1,6817043E+003	-1,7901146E+001	5,4766636E+003	5,2115288E+003	1,6833931E+003	0,0000000E+000	6,0410000E-002	6,2284213E-003	6,0730234E-002	5,8865380E+000	5,470987685113314E-009
1,0000186E+006	-2,9476522E+001	4,6318909E+001	5,4902702E+001	-1,2247195E+002	3,909243404645007E+005	1,3576325E+001	1,4230945E-005	3,4360045E-003	2,4455860E-003	1,900000000000000E+001	2,8628251E-004	5,2143610E-006	0	14	1,813253654968131E-009	1,3446318E+001	1,9766373E-004	4,1412685E+001	3,7907566E+001	2,8429333E+001	-2,5075018E+001	-9,2822037E+001	2,1269686E+001	-1,0471897E+000	2,1243891E+001	0,0000000E+000	-9,7788740E-003	1,5366355E-002	1,8214040E-002	1,2247195E+002	0,000000000000000E+000
5,8157570E+001	3,4943488E+000	1,3055075E+000	3,7302577E+000	-2,0485958E+001	3,909345974655706E+005	1,3576315E+001	6,7163655E-006	2,0962085E+003	2,5675302E+002	1,900000000000000E+001	1,7788165E-005	4,7686153E-006	0	14	2,861255407957388E-008	1,3424789E+001	2,5968550E-002	-1,7699015E+001	5,4457212E+003	5,1879575E+003	1,6555901E+003	-1,7700922E+001	5,4494473E+003	5,1914517E+003	1,6568956E+003	0,0000000E+000	2,5112420E-001	9,3821354E-002	2,6807800E-001	2,0485958E+001	-9,564336340241005E-010
1,0000186E+006	-3,0792389E+001	4,8003357E+001	5,7030636E+001	-1,2267868E+002	4,080003776610675E+005	1,3574542E+001	1,6680606E-005	3,3154343E-003	2,3489147E-003	2,000000000000000E+001	2,9612085E-004	5,1923121E-006	0	14	1,414203887189084E-009	1,3446519E+001	1,9715115E-004	4,2894333E+001	3,7969818E+001	2,7817078E+001	-2,5844095E+001	-9,7647331E+001	2,2358116E+001	-2,9753113E+000	2,2159262E+001	0,0000000E+000	-9,4673177E-003	1,4758940E-002	1,7534435E-002	1,2267868E+002	0,000000000000000E+000
5,8157570E+001	4,6015844E+000	-3,0305572E+000	5,5098872E+000	3,3368496E+001	4,080107656621505E+005	1,3574227E+001	6,1979963E-006	-9,0300757E+002	-2,7318127E+002	2,000000000000000E+001	2,6269501E-005	4,7677022E-006	0	14	3,921725728175969E-008	1,3444193E+001	2,5875716E-002	-1,7518187E+001	5,4272930E+003	5,1755830E+003	1,6336614E+003	-1,7473083E+001	5,4307705E+003	5,1801846E+003	1,6306309E+003	0,0000000E+000	1,5157305E-001	-9,9824473E-002	1,8149191E-001	-3,3368496E+001	5,152803679063965E-009
1,0000186E+006	-2,8194824E+001	4,6363388E+001	5,4263355E+001	-1,2130491E+002	4,254245701983529E+005	1,3575730E+001	1,2514241E-005	3,4327086E-003	2,5059590E-003	2,100000000000000E+001	2,8010292E-004	5,1619168E-006	0	14	5,533836013348214E-010	1,3470252E+001	2,0420262E-004	3,8935020E+001	3,9559456E+001	3,0771685E+001	-2,4860691E+001	-8,3166321E+001	2,1656551E+001	2,5768604E+000	2,1502697E+001	0,0000000E+000	-9,5753809E-003	1,5745696E-002	1,8428642E-002	1,2130491E+002	0,000000000000000E+000
5,8157570E+001	-3,3349548E-002	7,8938947E+000	7,8939652E+000	-9,0242058E+001	4,254349571994357E+005	1,3575487E+001	6,6641228E-006	3,4667502E+002	3,4666882E+002	2,100000000000000E+001	3,7628877E-005	4,7667904E-006	0	14	2,260089350258770E-008	1,3443110E+001	2,3732612E-002	-1,6061121E+001	4,9787402E+003	4,7844058E+003	1,3774314E+003	-1,6148487E+001	4,9808984E+003	4,7843726E+003	1,3853253E+003	0,0000000E+000	-5,3518009E-004	1,2667792E-001	1,2667905E-001	9,0242058E+001	1,804274838031954E-009
1,0000186E+006	-2,7444130E+001	4,7321667E+001	5,4703934E+001	-1,2011153E+002	4,455823042989969E+005	1,3575274E+001	1,6405187E-005	3,3631946E-003	2,5167204E-003	2,200000000000000E+001	2,8407437E-004	5,1929424E-006	0	14	2,704230581542788E-009	1,3495950E+001	1,9528031E-004	4,7525948E+001	3,7604946E+001	2,5392975E+001	-2,7736778E+001	-9,5978874E+001	1,9692005E+001	-2,0511551E+000	1,9584888E+001	0,0000000E+000	-9,1709085E-003	1,5813315E-002	1,8280221E-002	1,2011153E+002	0,000000000000000E+000
5,8157570E+001	5,6491189E+000	-4,9904451E+000	7,5377111E+000	4,1457455E+001	4,455924273000527E+005	1,3574862E+001	6,1095461E-006	-5,4837115E+002	-2,4036664E+002	2,200000000000000E+001	3,5936264E-005	4,7675298E-006	0	14	2,396445654730112E-008	1,3492944E+001	1,9909665E-002	-1,7772190E+001	4,1760967E+003	3,9768035E+003	1,2746830E+003	-1,7683413E+001	4,1799580E+003	3,9824526E+003	1,2696925E+003	0,0000000E+000	9,9426404E-002	-8,7833516E-002	1,3266626E-001	-4,1457455E+001	-3,595540455655230E-009
1,0000186E+006	-2,9484402E+001	4,6492031E+001	5,5053055E+001	-1,2238213E+002	4,651610250308160E+005	1,3575434E+001	1,6059235E-005	3,4232100E-003	2,4413371E-003	2,300000000000000E+001	2,8117106E-004	5,1072743E-006	0	14	1,302444318813261E-009	1,3495269E+001	1,8855494E-004	4,7765972E+001	3,6918900E+001	2,4815424E+001	-2,7334957E+001	-1,0369714E+002	1,9717831E+001	-4,6689777E+000	1,9157074E+001	0,0000000E+000	-9,7281318E-003	1,5339658E-002	1,8164296E-002	1,2238213E+002	0,000000000000000E+000
5,8157570E+001	8,6901121E+000	-4,4490752E+000	9,7628031E+000	2,7111074E+001	4,651714130318998E+005	1,3575212E+001	6,7745887E-006	-6,1509772E+002	-1,2774225E+002	2,300000000000000E+001	4,6573627E-005	4,7705180E-006	0	14	2,868685757759850E-008	1,3479193E+001	1,9689502E-002	-1,8252085E+001	4,1273301E+003	3,9196748E+003	1,2926730E+003	-1,8155806E+001	4,1341953E+003	3,9283650E+003	1,2882239E+003	0,0000000E+000	9,1175117E-002	-4,6678904E-002	1,0242960E-001	-2,7111074E+001	4,323530607229663E-009
1,0000186E+006	-2,6557871E+001	4,7242523E+001	5,4195724E+001	-1,1934296E+002	4,835762148297541E+005	1,3574787E+001	1,4773199E-005	3,3688289E-003	2,5598535E-003	2,400000000000000E+001	2,8108319E-004	5,1864458E-006	0	14	2,970534068332932E-009	1,3491700E+001	1,8947876E-004	4,9332199E+001	3,6533451E+001	2,3807837E+001	-2,7710648E+001	-9,8014404E+001	1,9724524E+001	-2,7500343E+000	1,9531876E+001	0,0000000E+000	-9,0419725E-003	1,6084332E-002	1,8451640E-002	1,1934296E+002	0,000000000000000E+000
5,8157570E+001	1,2048583E+001	-1,2028952E+000	1,2108480E+001	5,7013502E+000	4,835866028308375E+005	1,3574765E+001	7,5291878E-006	-2,2750244E+003	-2,2452379E+001	2,400000000000000E+001	5,7737339E-005	4,7683388E-006	0	14	2,848235521734447E-008	1,3507657E+001	2,0192558E-002	-1,8397339E+001	4,2347153E+003	4,0182820E+003	1,3364972E+003	-1,8330620E+001	4,2457715E+003	4,0303306E+003	1,3352943E+003	0,0000000E+000	8,2178205E-002	-8,2044313E-003	8,2586743E-002	-5,7013502E+000	-2,930145391524599E-009
1,0000186E+006	-2,9827972E+001	4,5848919E+001	5,4697636E+001	-1,2304685E+002	5,017651045972845E+005	1,3574758E+001	1,0899047E-005	3,4712264E-003	2,4389564E-003	2,500000000000000E+001	2,8340772E-004	5,1813522E-006	0	14	1,969180207884354E-009	1,3493665E+001	1,9467568E-004	4,4234882E+001	3,7572369E+001	2,6920076E+001	-2,6210539E+001	-9,8422707E+001	1,9852501E+001	-2,9078960E+000	1,9638380E+001	0,0000000E+000	-9,9698035E-003	1,5324702E-002	1,8282326E-002	1,2304685E+002	0,000000000000000E+000
5,8157570E+001	1,6368069E+001	2,0682490E+000	1,6498222E+001	-7,2016578E+000	5,017752295983406E+005	1,3574518E+001	7,0223914E-006	1,3231560E+003	2,0794209E+001	2,500000000000000E+001	7,8629055E-005	4,7659105E-006	0	14	2,972068533486234E-008	1,3472818E+001	1,9816596E-002	-1,8525576E+001	4,1579873E+003	3,9425283E+003	1,3211086E+003	-1,8481108E+001	4,1741655E+003	3,9588965E+003	1,3231769E+003	0,0000000E+000	6,0134422E-002	7,5985119E-003	6,0612589E-002	7,2016578E+000	1,285296343458718E-009
1,0000186E+006	-2,8685417E+001	4,4756538E+001	5,3160145E+001	-1,2265668E+002	5,199129251952060E+005	1,3575706E+001	1,5600575E-005	3,5559495E-003	2,5205554E-003	2,600000000000000E+001	2,7940716E-004	5,2559517E-006	0	14	1,008553137267319E-009	1,3494787E+001	1,9500687E-004	4,4437622E+001	3,7102104E+001	2,6491390E+001	-2,5976381E+001	-9,6663483E+001	1,8907883E+001	-2,1940269E+000	1,8780157E+001	0,0000000E+000	-1,0150534E-002	1,5837410E-002	1,8811084E-002	1,2265668E+002	0,000000000000000E+000
5,8157570E+001	1,2982507E+001	9,3610783E+000	1,6005476E+001	-3,5793610E+001	5,199233131962899E+005	1,3575512E+001	7,6359229E-006	2,9233981E+002	1,0000059E+002	2,600000000000000E+001	7,6303346E-005	4,7673275E-006	0	14	3,158383453594777E-008	1,3512869E+001	1,9117152E-002	-1,8440292E+001	4,0100354E+003	3,8041353E+003	1,2684393E+003	-1,8508244E+001	4,0253149E+003	3,8171177E+003	1,2778004E+003	0,0000000E+000	5,0678220E-002	3,6541693E-002	6,2478617E-002	3,5793610E+001	9,809562768939255E-010
1,0000186E+006	-2,8786583E+001	4,8985863E+001	5,6817974E+001	-1,2044066E+002	5,380577848300431E+005	1,3574872E+001	1,1989155E-005	3,2489372E-003	2,4149679E-003	2,700000000000000E+001	2,9579402E-004	5,2059936E-006	0	14	1,057032000046674E-009	1,3497073E+001	1,8228553E-004	4,2626602E+001	3,5014549E+001	2,5763102E+001	-2,3712471E+001	-9,6821930E+001	2,5453600E+001	-3,0234814E+000	2,5273392E+001	0,0000000E+000	-8,9169974E-003	1,5173973E-002	1,7600065E-002	1,2044066E+002	0,000000000000000E+000
5,8157570E+001	7,3010793E+000	7,0819340E+000	1,0171507E+001	-4,4127087E+001	5,380681718312819E+005	1,3574720E+001	6,8548247E-006	3,8642215E+002	1,8732475E+002	2,700000000000000E+001	4,8500682E-005	4,7682888E-006	0	14	2,062965398618467E-008	1,3514752E+001	1,7994335E-002	-1,8399347E+001	3,7737510E+003	3,5808354E+003	1,1911401E+003	-1,8466223E+001	3,7829167E+003	3,5881365E+003	1,1982220E+003	0,0000000E+000	7,0569411E-002	6,8451241E-002	9,8313853E-002	4,4127087E+001	-7,853953237157731E-010
1,0000186E+006	-2,6563034E+001	4,4725246E+001	5,2018673E+001	-1,2070675E+002	5,560869859675858E+005	1,3572490E+001	1,2599704E-005	3,5584376E-003	2,6305483E-003	2,800000000000000E+001	2,7017243E-004	5,1937586E-006	0	14	1,768267810059380E-009	1,3492422E+001	2,0982568E-004	4,4936607E+001	4,0399582E+001	2,8598408E+001	-2,8535194E+001	-8,2834511E+001	1,6317492E+001	2,0353737E+000	1,6190052E+001	0,0000000E+000	-9,8165553E-003	1,6528528E-002	1,9223865E-002	1,2070675E+002	0,000000000000000E+000
5,8157570E+001	5,4220676E+000	1,0168471E+001	1,1523742E+001	-6,1932411E+001	5,560971109687928E+005	1,3572773E+001	7,9299989E-006	2,6912759E+002	2,0954752E+002	2,800000000000000E+001	5,4940450E-005	4,7675876E-006	0	14	2,338388775545910E-008	1,3472697E+001	1,8355390E-002	-1,8410000E+001	3,8500374E+003	3,6529958E+003	1,2158982E+003	-1,8527842E+001	3,8584014E+003	3,6584180E+003	1,2260667E+003	0,0000000E+000	4,0829863E-002	7,6571755E-002	8,6777367E-002	6,1932411E+001	4,016532459192785E-010
1,0000186E+006	-2,8210453E+001	4,3938580E+001	5,2215214E+001	-1,2270220E+002	5,741114241105970E+005	1,3573764E+001	1,1683506E-005	3,6221468E-003	2,5648617E-003	2,900000000000000E+001	2,7291218E-004	5,2266791E-006	0	14	1,955546832877846E-009	1,3485687E+001	2,0027001E-004	4,5579517E+001	3,8316875E+001	2,6818697E+001	-2,7366776E+001	-9,4800629E+001	1,6630144E+001	-1,3917561E+000	1,6571804E+001	0,0000000E+000	-1,0347036E-002	1,6115801E-002	1,9151507E-002	1,2270220E+002	0,000000000000000E+000
5,8157570E+001	4,6243873E+000	1,3219410E+001	1,4004919E+001	-7,0719246E+001	5,741218111118356E+005	1,3573697E+001	7,1239010E-006	2,0701498E+002	1,8444409E+002	2,900000000000000E+001	6,6792745E-005	4,7692347E-006	0	14	1,227057388108379E-008	1,3490337E+001	1,9475393E-002	-1,8452013E+001	4,0835469E+003	3,8736079E+003	1,2924847E+003	-1,8607096E+001	4,0921326E+003	3,8782322E+003	1,3057041E+003	0,0000000E+000	2,3577239E-002	6,7398600E-002	7,1403481E-002	7,0719246E+001	-3,844327349447163E-009
1,0000186E+006	-2,8054499E+001	4,6645580E+001	5,4432205E+001	-1,2102437E+002	5,922738732853475E+005	1,3573994E+001	1,4688858E-005	3,4119415E-003	2,5055939E-003	3,000000000000000E+001	2,8535744E-004	5,2424375E-006	0	14	1,318606851544107E-009	1,3488574E+001	1,8544632E-004	4,5602985E+001	3,5374065E+001	2,4748621E+001	-2,5275093E+001	-9,8793587E+001	2,1624674E+001	-3,3058777E+000	2,1370487E+001	0,0000000E+000	-9,4687073E-003	1,5743405E-002	1,8371478E-002	1,2102437E+002	0,000000000000000E+000
5,8157570E+001	8,9073763E+000	-6,7700143E+000	1,1188139E+001	3,7236496E+001	5,922839982865545E+005	1,3573699E+001	8,0759191E-006	-4,0422604E+002	-1,4800888E+002	3,000000000000000E+001	5,3329382E-005	4,7665999E-006	0	14	2,733852728426377E-008	1,3495349E+001	1,8851757E-002	-1,8683218E+001	3,9549695E+003	3,7465591E+003	1,2669172E+003	-1,8549183E+001	3,9612498E+003	3,7554666E+003	1,2601472E+003	0,0000000E+000	7,1159698E-002	-5,4084629E-002	8,9380369E-002	-3,7236496E+001	-3,611606769343072E-009
1,0000186E+006	-2,9057859E+001	4,9596756E+001	5,7482147E+001	-1,2036528E+002	6,106495585991945E+005	1,3578915E+001	1,2604182E-005	3,2089192E-003	2,3889076E-003	3,100000000000000E+001	2,9852890E-004	5,1934194E-006	0	14	8,757587068591495E-010	1,3490859E+001	2,0717151E-004	4,7301231E+001	3,9891159E+001	2,7051945E+001	-2,9317177E+001	-9,5648926E+001	2,0378544E+001	-2,0059147E+000	2,0279579E+001	0,0000000E+000	-8,7942258E-003	1,5010227E-002	1,7396705E-002	1,2036528E+002	0,000000000000000E+000
5,8157570E+001	8,1940031E+000	-4,4547358E+000	9,3266478E+000	2,8531069E+001	6,106596826004013E+005	1,3578429E+001	7,1507707E-006	-6,1431616E+002	-1,4014728E+002	3,100000000000000E+001	4,4436358E-005	4,7644512E-006	0	14	7,871085325152510E-009	1,3476747E+001	1,8535448E-002	-1,8562336E+001	3,8903638E+003	3,6879788E+003	1,2384436E+003	-1,8461887E+001	3,8967195E+003	3,6961729E+003	1,2339889E+003	0,0000000E+000	9,4198719E-002	-5,1211886E-002	1,0721966E-001	-2,8531069E+001	-7,483155673576721E-010
1,0000186E+006	-2,9186111E+001	4,6673576E+001	5,5047722E+001	-1,2201874E+002	6,291623591454793E+005	1,3577967E+001	1,4828060E-005	3,4098946E-003	2,4513451E-003	3,200000000000000E+001	2,8841654E-004	5,2393912E-006	0	14	1,673002504579320E-009	1,3490618E+001	2,1678855E-004	4,4704506E+001	4,1376671E+001	2,9408226E+001	-2,9106445E+001	-8,9275604E+001	1,7568535E+001	2,2211456E-001	1,7567131E+001	0,0000000E+000	-9,6315807E-003	1,5402540E-002	1,8166056E-002	1,2201874E+002	0,000000000000000E+000
5,8157570E+001	9,3027639E+000	1,0482342E+000	9,3616352E+000	-6,4289632E+000	6,291727461467180E+005	1,3577936E+001	6,8287013E-006	2,6106914E+003	3,2731716E+001	3,200000000000000E+001	4,4610679E-005	4,7652657E-006	0	14	5,041983662310183E-008	1,3481678E+001	1,8326085E-002	-1,8501255E+001	3,8457637E+003	3,6470020E+003	1,2203585E+003	-1,8472153E+001	3,8549187E+003	3,6563047E+003	1,2214067E+003	0,0000000E+000	1,0614721E-001	1,1960653E-002	1,0681894E-001	6,4289632E+000	-2,338706221078409E-009
1,0000186E+006	-2,6968796E+001	4,5023193E+001	5,2482414E+001	-1,2092152E+002	6,478690036552656E+005	1,3576609E+001	1,5123632E-005	3,5348888E-003	2,6014815E-003	3,300000000000000E+001	2,7979194E-004	5,3311560E-006	0	14	2,167959467745580E-009	1,3487210E+001	2,0156917E-004	4,9231491E+001	3,7809654E+001	2,4689873E+001	-2,8635296E+001	-9,7916855E+001	1,6545593E+001	-2,2789230E+000	1,6387897E+001	0,0000000E+000	-9,7911544E-003	1,6345894E-002	1,9054001E-002	1,2092152E+002	0,000000000000000E+000
5,8157570E+001	1,2789559E+000	6,2902870E+000	6,4189906E+000	-7,8507149E+001	6,478792616564883E+005	1,3576395E+001	7,1182967E-006	4,3505423E+002	4,1778308E+002	3,300000000000000E+001	3,0593779E-005	4,7661356E-006	0	14	3,556479983552663E-008	1,3491099E+001	1,7934900E-002	-1,8288961E+001	3,7629856E+003	3,5729019E+003	1,1808608E+003	-1,8373718E+001	3,7661780E+003	3,5741809E+003	1,1871511E+003	0,0000000E+000	3,1040031E-002	1,5266412E-001	1,5578774E-001	7,8507149E+001	4,708955882670629E-009
1,0000186E+006	-2,7774853E+001	4,3971439E+001	5,2008942E+001	-1,2227882E+002	6,667730651236600E+005	1,3574008E+001	1,6395485E-005	3,6194401E-003	2,5871804E-003	3,400000000000000E+001	2,7223685E-004	5,2344240E-006	0	14	2,160619922623002E-009	1,3486088E+001	2,0253219E-004	4,4023548E+001	3,8692356E+001	2,7821903E+001	-2,6889406E+001	-8,9842186E+001	1,7082098E+001	4,7050476E-002	1,7082033E+001	0,0000000E+000	-1,0268233E-002	1,6256038E-002	1,9227464E-002	1,2227882E+002	0,000000000000000E+000
5,8157570E+001	1,4917696E+000	6,8684381E-001	1,6422944E+000	-2,4722393E+001	6,667833211248824E+005	1,3573902E+001	6,3013740E-006	3,9843354E+003	6,9689899E+002	3,400000000000000E+001	7,8254861E-006	4,7649714E-006	0	14	2,544980530228713E-008	1,3498716E+001	1,7510418E-002	-1,8312237E+001	3,6748210E+003	3,4887222E+003	1,1546112E+003	-1,8315096E+001	3,6764529E+003	3,4902139E+003	1,1552981E+003	0,0000000E+000	5,5309498E-001	2,5465721E-001	6,0890424E-001	2,4722393E+001	-3,145316361370633E-009
1,0000186E+006	-2,8470079E+001	4,3081303E+001	5,1638592E+001	-1,2345853E+002	6,859341484779958E+005	1,3574183E+001	1,7561724E-005	3,6942239E-003	2,5712962E-003	3,500000000000000E+001	2,6899786E-004	5,2092410E-006	0	14	1,490429582882295E-009	1,3491019E+001	2,0255268E-004	4,7685188E+001	3,8883339E+001	2,6176407E+001	-2,8752560E+001	-9,9094460E+001	1,4511162E+001	-2,2936726E+000	1,4328743E+001	0,0000000E+000	-1,0676770E-002	1,6156232E-002	1,9365361E-002	1,2345853E+002	0,000000000000000E+000
5,8157570E+001	1,3000670E+001	-1,0486797E+000	1,3042897E+001	4,6116939E+000	6,859445384792332E+005	1,3573658E+001	7,6661527E-006	-2,6095823E+003	-1,6869747E+001	3,500000000000000E+001	6,2165469E-005	4,7662315E-006	0	14	5,316498254539207E-008	1,3502605E+001	1,5732920E-002	-1,8077093E+001	3,3009138E+003	3,1379802E+003	1,0242616E+003	-1,7990084E+001	3,3129512E+003	3,1509810E+003	1,0232129E+003	0,0000000E+000	7,6421857E-002	-6,1644553E-003	7,6670080E-002	-4,6116939E+000	2,482373689228253E-009
1,0000186E+006	-2,7753164E+001	4,6735229E+001	5,4354576E+001	-1,2070346E+002	7,054249926295672E+005	1,3574264E+001	1,5488618E-005	3,4053966E-003	2,5175854E-003	3,600000000000000E+001	2,7910707E-004	5,1349325E-006	0	14	1,242401119791718E-009	1,3492262E+001	1,8787970E-004	4,4654652E+001	3,6588543E+001	2,6027479E+001	-2,5715595E+001	-9,4693382E+001	2,1090353E+001	-1,7256851E+000	2,1019634E+001	0,0000000E+000	-9,3937786E-003	1,5818750E-002	1,8397715E-002	1,2070346E+002	0,000000000000000E+000
5,8157570E+001	5,6302910E+000	1,0854980E+001	1,2228278E+001	-6,2585011E+001	7,054351186307743E+005	1,3574079E+001	6,7040478E-006	2,5210696E+002	1,9866086E+002	3,600000000000000E+001	5,8303965E-005	4,7679619E-006	0	14	2,998223618694990E-008	1,3476907E+001	1,4942140E-002	-1,7602800E+001	3,1338633E+003	2,9871228E+003	9,4773193E+002	-1,7760403E+001	3,1425244E+003	2,9927532E+003	9,5858691E+002	0,0000000E+000	3,7653055E-002	7,2593622E-002	8,1777662E-002	6,2585011E+001	4,926690649350977E-010
1,0000186E+006	-2,8214434E+001	4,9031563E+001	5,6569855E+001	-1,1991759E+002	7,250038686732315E+005	1,3574759E+001	1,2375413E-005	3,2459090E-003	2,4384714E-003	3,700000000000000E+001	3,0130066E-004	5,3261701E-006	0	14	1,857448808844235E-009	1,3491500E+001	2,0519982E-004	4,7078785E+001	3,8526711E+001	2,6236383E+001	-2,8212757E+001	-9,5427528E+001	2,0912565E+001	-1,9780502E+000	2,0818806E+001	0,0000000E+000	-8,8165998E-003	1,5321652E-002	1,7677259E-002	1,1991759E+002	0,000000000000000E+000
5,8157570E+001	1,0576271E+001	-1,5570732E+000	1,0690275E+001	8,3751087E+000	7,250139936744384E+005	1,3574468E+001	6,6432267E-006	-1,7575383E+003	-3,7285942E+001	3,700000000000000E+001	5,0969633E-005	4,7678504E-006	0	14	2,893855538378729E-008	1,3483081E+001	1,5011100E-002	-1,7586693E+001	3,1483999E+003	3,0012463E+003	9,5128424E+002	-1,7501785E+001	3,1580146E+003	3,0118225E+003	9,4972717E+002	0,0000000E+000	9,2545390E-002	-1,3624836E-002	9,3542963E-002	-8,3751087E+000	5,373829760868730E-009
1,0000186E+006	-2,8036491E+001	4,6999298E+001	5,4726398E+001	-1,2081734E+002	7,447789662771132E+005	1,3574150E+001	1,2518347E-005	3,3862630E-003	2,4975243E-003	3,800000000000000E+001	2,8618367E-004	5,2293531E-006	0	14	1,841732386534684E-009	1,3487451E+001	2,0592834E-004	4,8863903E+001	3,9379314E+001	2,5905676E+001	-2,9658495E+001	-9,7005318E+001	1,7471228E+001	-2,1308155E+000	1,7340803E+001	0,0000000E+000	-9,3611646E-003	1,5692698E-002	1,8272717E-002	1,2081734E+002	0,000000000000000E+000
5,8157570E+001	5,0103164E+000	1,0466908E+001	1,1604284E+001	-6,4420418E+001	7,447893542783521E+005	1,3573934E+001	7,4407440E-006	2,6145413E+002	2,1271375E+002	3,800000000000000E+001	5,5324934E-005	4,7676299E-006	0	14	3,700930028302688E-008	1,3468368E+001	1,5509578E-002	-1,7425270E+001	3,2531003E+003	3,1038101E+003	9,7417877E+002	-1,7574373E+001	3,2610261E+003	3,1088203E+003	9,8464569E+002	0,0000000E+000	3,7207324E-002	7,7728741E-002	8,6175069E-002	6,4420418E+001	1,998071260175039E-009
1,0000186E+006	-2,8317446E+001	4,7813667E+001	5,5569996E+001	-1,2063596E+002	7,648948594649304E+005	1,3572840E+001	1,2163810E-005	3,3285879E-003	2,4642423E-003	3,900000000000000E+001	2,8999033E-004	5,2184696E-006	0	14	1,947415326833537E-009	1,3488654E+001	2,0378835E-004	4,3670387E+001	3,9051365E+001	2,8246796E+001	-2,6965305E+001	-9,0194160E+001	2,0848482E+001	-7,0650101E-002	2,0848362E+001	0,0000000E+000	-9,1700852E-003	1,5483577E-002	1,7995322E-002	1,2063596E+002	0,000000000000000E+000
5,8157570E+001	5,3108411E+000	1,1207373E+000	5,4278069E+000	-1,1916190E+001	7,649051164661534E+005	1,3573399E+001	7,2757880E-006	2,4417998E+003	1,0410436E+002	3,900000000000000E+001	2,5878129E-005	4,7676954E-006	0	14	9,920273639055369E-009	1,3491340E+001	1,5111004E-002	-1,7376867E+001	3,1694568E+003	3,0248059E+003	9,4657568E+002	-1,7367546E+001	3,1748599E+003	3,0301167E+003	9,4769641E+002	0,0000000E+000	1,8026631E-001	3,8041275E-002	1,8423648E-001	1,1916190E+001	-3,713988181617524E-009
1,0000186E+006	-2,9010502E+001	4,6850948E+001	5,5105541E+001	-1,2176614E+002	7,850032560617379E+005	1,3581622E+001	1,5160951E-005	3,3969854E-003	2,4554997E-003	4,000000000000000E+001	2,8505138E-004	5,1728261E-006	0	14	1,633976224898643E-009	1,3499238E+001	2,0661752E-004	4,8285973E+001	3,9942871E+001	2,6578512E+001	-2,9816366E+001	-9,8125084E+001	1,7207312E+001	-2,4319897E+000	1,7034582E+001	0,0000000E+000	-9,5535489E-003	1,5428646E-002	1,8146995E-002	1,2176614E+002	0,000000000000000E+000
5,8157570E+001	1,3036143E+001	1,8256854E+000	1,3163364E+001	-7,9723063E+000	7,850133820629450E+005	1,3581608E+001	6,8216136E-006	1,4989528E+003	2,8834074E+001	4,000000000000000E+001	6,2709005E-005	4,7639041E-006	0	14	3,313422726412795E-008	1,3508860E+001	1,4201541E-002	-1,7106777E+001	2,9810720E+003	2,8491841E+003	8,7689240E+002	-1,7066788E+001	2,9940691E+003	2,8622202E+003	8,7871808E+002	0,0000000E+000	7,5234205E-002	1,0536398E-002	7,5968422E-002	7,9723063E+000	-2,045648172497754E-009
1,0000186E+006	-2,7167316E+001	4,6955395E+001	5,4248245E+001	-1,2005269E+002	8,053338021869287E+005	1,3577085E+001	1,2373173E-005	3,3894293E-003	2,5393711E-003	4,100000000000000E+001	2,8363540E-004	5,2284713E-006	0	14	1,072028632096236E-009	1,3493705E+001	1,9702868E-004	4,8066536E+001	3,7683804E+001	2,5182850E+001	-2,8033787E+001	-9,5987198E+001	1,9025387E+001	-1,9844666E+000	1,8921608E+001	0,0000000E+000	-9,2315646E-003	1,5955636E-002	1,8433776E-002	1,2005269E+002	0,000000000000000E+000
5,8157570E+001	-7,3998255E-001	7,6650352E+000	7,7006712E+000	-9,5514244E+001	8,053439271881357E+005	1,3576578E+001	7,0630686E-006	3,5702591E+002	3,5372916E+002	4,100000000000000E+001	3,6691192E-005	4,7646745E-006	0	14	4,154587129050292E-008	1,3493144E+001	1,3928844E-002	-1,6850664E+001	2,9233569E+003	2,7978384E+003	8,4741742E+002	-1,6998569E+001	2,9248804E+003	2,7970984E+003	8,5508246E+002	0,0000000E+000	-1,2478550E-002	1,2925786E-001	1,2985881E-001	9,5514244E+001	5,071100068050778E-009
1,0000186E+006	-2,9776485E+001	4,3710903E+001	5,2889339E+001	-1,2426324E+002	8,258500882851519E+005	1,3576001E+001	1,4179444E-005	3,6410135E-003	2,4869414E-003	4,200000000000000E+001	2,8337294E-004	5,3578460E-006	0	14	2,262032810455771E-009	1,3493545E+001	2,0534973E-004	4,5489300E+001	3,8326920E+001	2,6868797E+001	-2,7331675E+001	-1,0006644E+002	1,6635317E+001	-2,9076881E+000	1,6379229E+001	0,0000000E+000	-1,0644792E-002	1,5626203E-002	1,8907402E-002	1,2426324E+002	0,000000000000000E+000
5,8157570E+001	-6,7022848E-001	-8,9355736E+000	8,9606743E+000	9,4289536E+001	8,258602162863594E+005	1,3575876E+001	6,4107171E-006	-3,0626080E+002	-3,0454742E+002	4,200000000000000E+001	4,2723161E-005	4,7678514E-006	0	14	2,364928631113293E-008	1,3499879E+001	1,3853567E-002	-1,6936636E+001	2,9056206E+003	2,7795967E+003	8,4644775E+002	-1,6771744E+001	2,9023884E+003	2,7789265E+003	8,3751221E+002	0,0000000E+000	-8,3472067E-003	-1,1128613E-001	1,1159874E-001	-9,4289536E+001	2,751607447862623E-009
1,0000186E+006	-2,8375114E+001	4,6971542E+001	5,4876888E+001	-1,2113583E+002	8,465441455661803E+005	1,3574073E+001	1,5314334E-005	3,3882640E-003	2,4823782E-003	4,300000000000000E+001	2,8661152E-004	5,2228092E-006	0	14	1,915154586422811E-009	1,3489135E+001	1,9732189E-004	4,5355717E+001	3,7780796E+001	2,6548685E+001	-2,6880400E+001	-9,5194321E+001	2,0173990E+001	-1,8264294E+000	2,0091143E+001	0,0000000E+000	-9,4223386E-003	1,5597531E-002	1,8222608E-002	1,2113583E+002	0,000000000000000E+000
5,8157570E+001	3,4038618E+000	-5,7810917E+000	6,7087479E+000	5,9510754E+001	8,465544025674034E+005	1,3573842E+001	6,0132602E-006	-4,7337360E+002	-3,5151251E+002	4,300000000000000E+001	3,1978972E-005	4,7667572E-006	0	14	3,852104393102865E-008	1,3477468E+001	1,3962106E-002	-1,6891699E+001	2,9290574E+003	2,8026853E+003	8,5107733E+002	-1,6764215E+001	2,9306418E+003	2,8060891E+003	8,4529626E+002	0,0000000E+000	7,5629115E-002	-1,2844788E-001	1,4905912E-001	-5,9510754E+001	-1,349645507187028E-009
1,0000186E+006	-2,7759535E+001	4,6497341E+001	5,4153435E+001	-1,2083777E+002	8,674051576433685E+005	1,3577108E+001	1,4944870E-005	3,4228191E-003	2,5234120E-003	4,400000000000000E+001	2,8208620E-004	5,2090177E-006	0	14	2,428904007285521E-009	1,3488694E+001	1,9117647E-004	4,3248524E+001	3,6701061E+001	2,6732635E+001	-2,5146254E+001	-9,2753571E+001	2,1375769E+001	-1,0268993E+000	2,1351088E+001	0,0000000E+000	-9,4658630E-003	1,5855361E-002	1,8466050E-002	1,2083777E+002	0,000000000000000E+000
5,8157570E+001	5,4617796E+000	7,1733303E+000	9,0159693E+000	-5,2714325E+001	8,674152836445756E+005	1,3576715E+001	7,6086849E-006	3,8149869E+002	2,4149596E+002	4,400000000000000E+001	4,2956355E-005	4,7644744E-006	0	14	4,942240422534876E-008	1,3474782E+001	1,4402702E-002	-1,6632618E+001	3,0229363E+003	2,8964561E+003	8,6526672E+002	-1,6733015E+001	3,0302273E+003	2,9019177E+003	8,7244006E+002	0,0000000E+000	6,7190729E-002	8,8246197E-002	1,1091431E-001	5,2714325E+001	-1,344272930004479E-009
1,0000186E+006	-2,7589378E+001	4,8516548E+001	5,5812447E+001	-1,1962512E+002	8,885408575847317E+005	1,3575101E+001	1,5014658E-005	3,2803651E-003	2,4787907E-003	4,500000000000000E+001	2,8850787E-004	5,1692391E-006	0	14	1,684492077512484E-009	1,3486569E+001	2,0834639E-004	4,4884785E+001	4,0305042E+001	2,8557220E+001	-2,8442602E+001	-8,7239685E+001	2,0097263E+001	9,6784210E-001	2,0073946E+001	0,0000000E+000	-8,8568609E-003	1,5574990E-002	1,7917151E-002	1,1962512E+002	0,000000000000000E+000
5,8157570E+001	-2,0685143E+000	-9,5836431E-001	2,2797399E+000	1,5514122E+002	8,885512455859706E+005	1,3574852E+001	7,1589830E-006	-2,8555071E+003	-5,0463098E+002	4,500000000000000E+001	1,0868707E-005	4,7675207E-006	0	14	4,406289059656703E-008	1,3478271E+001	1,4399049E-002	-1,6617525E+001	3,0202383E+003	2,8940984E+003	8,6373224E+002	-1,6611322E+001	3,0179819E+003	2,8920298E+003	8,6277386E+002	0,0000000E+000	-3,9800447E-001	-1,8439960E-001	4,3864653E-001	-1,5514122E+002	-2,815557300904303E-009
1,0000186E+006	-2,6003414E+001	4,6195770E+001	5,3011570E+001	-1,1937498E+002	9,097343738558217E+005	1,3574623E+001	1,1453244E-005	3,4451638E-003	2,6162120E-003	4,600000000000000E+001	2,7754187E-004	5,2354962E-006	0	14	1,153485656355239E-009	1,3481918E+001	2,0994332E-004	4,9207611E+001	4,0099983E+001	2,6198124E+001	-3,0358969E+001	-8,9295601E+001	1,5837998E+001	1,9470978E-001	1,5836802E+001	0,0000000E+000	-9,2531377E-003	1,6438451E-002	1,8863807E-002	1,1937498E+002	0,000000000000000E+000
5,8157570E+001	9,3268929E+000	-2,1297166E+000	9,5669546E+000	1,2862481E+001	9,097444998570287E+005	1,3574568E+001	6,9089383E-006	-1,2849673E+003	-6,3677834E+001	4,600000000000000E+001	4,5626231E-005	4,7691487E-006	0	14	3,162164183456500E-008	1,3489055E+001	1,4628463E-002	-1,6726871E+001	3,0673113E+003	2,9375261E+003	8,8280200E+002	-1,6638870E+001	3,0756343E+003	2,9468530E+003	8,8067230E+002	0,0000000E+000	1,0190360E-001	-2,3268823E-002	1,0452647E-001	-1,2862481E+001	-3,421581962407396E-009
1,0000186E+006	-2,8668427E+001	4,4306591E+001	5,2772652E+001	-1,2290475E+002	9,312122397791091E+005	1,3572551E+001	1,1793600E-005	3,5920611E-003	2,5319934E-003	4,700000000000000E+001	2,7472989E-004	5,2059140E-006	0	14	1,939823466674145E-009	1,3474381E+001	1,8391684E-004	4,6116043E+001	3,5328445E+001	2,4489679E+001	-2,5462809E+001	-1,0250343E+002	1,9301556E+001	-4,1787472E+000	1,8843782E+001	0,0000000E+000	-1,0294044E-002	1,5909279E-002	1,8949209E-002	1,2290475E+002	0,000000000000000E+000
5,8157570E+001	-9,2731386E-001	-3,2325447E+000	3,3629236E+000	1,0600649E+002	9,312226277803476E+005	1,3572376E+001	6,5055083E-006	-8,4658264E+002	-7,8221185E+002	4,700000000000000E+001	1,6029002E-005	4,7663889E-006	0	14	3,295658700626013E-008	1,3461993E+001	1,5632667E-002	-1,6945623E+001	3,2797715E+003	3,1373696E+003	9,5593524E+002	-1,6896297E+001	3,2779434E+003	3,1364424E+003	9,5270270E+002	0,0000000E+000	-8,1995994E-002	-2,8583178E-001	2,9736030E-001	-1,0600649E+002	4,953886820734019E-009
1,0000186E+006	-3,1048100E+001	4,6794430E+001	5,6157841E+001	-1,2356427E+002	9,529254700151514E+005	1,3578816E+001	1,1527137E-005	3,4010883E-003	2,3614862E-003	4,800000000000000E+001	2,8686831E-004	5,1082502E-006	0	14	1,251791387034018E-009	1,3482320E+001	1,8698777E-004	4,7277130E+001	3,6605053E+001	2,4834808E+001	-2,6891676E+001	-1,0733745E+002	2,0850050E+001	-6,2132912E+000	1,9902754E+001	0,0000000E+000	-9,8449662E-003	1,4837932E-002	1,7806953E-002	1,2356427E+002	0,000000000000000E+000
5,8157570E+001	-2,4711900E+000	3,3728309E+000	4,1812401E+000	-1,2622932E+002	9,529358590163905E+005	1,3578875E+001	6,7861524E-006	8,1137073E+002	5,2795660E+002	4,800000000000000E+001	1,9922181E-005	4,7646586E-006	0	14	3,262608343094245E-008	1,3469651E+001	1,5539384E-002	-1,6704725E+001	3,2613845E+003	3,1237502E+003	9,3745074E+002	-1,6773985E+001	3,2599895E+003	3,1212791E+003	9,4082355E+002	0,0000000E+000	-1,4135005E-001	1,9292316E-001	2,3916350E-001	1,2622932E+002	-1,829108175949539E-009
1,0000186E+006	-3,1133539E+001	4,8151840E+001	5,7340187E+001	-1,2288550E+002	9,747017083742041E+005	1,3576922E+001	1,5381509E-005	3,3052110E-003	2,3308094E-003	4,900000000000000E+001	2,9249574E-004	5,1010602E-006	0	14	1,695419948456826E-009	1,3480034E+001	2,0127877E-004	4,6435017E+001	3,9458225E+001	2,7193695E+001	-2,8591162E+001	-1,0138795E+002	1,9953508E+001	-3,9398441E+000	1,9560678E+001	0,0000000E+000	-9,4691338E-003	1,4645179E-002	1,7439775E-002	1,2288550E+002	0,000000000000000E+000
5,8157570E+001	1,0383824E+001	-1,6255879E+000	1,0510297E+001	8,8974390E+000	9,747120943754427E+005	1,3576647E+001	6,4077312E-006	-1,6834623E+003	-4,0271183E+001	4,900000000000000E+001	5,0108738E-005	4,7675853E-006	0	14	4,946757506935582E-008	1,3461873E+001	1,5593003E-002	-1,6898872E+001	3,2706289E+003	3,1294009E+003	9,5071747E+002	-1,6818979E+001	3,2800950E+003	3,1397847E+003	9,4909186E+002	0,0000000E+000	9,3999892E-002	-1,4715686E-002	9,5144793E-002	-8,8974390E+000	3,370512596070010E-009
1,0000186E+006	-2,6886421E+001	4,8018867E+001	5,5033546E+001	-1,1924506E+002	9,965829902048986E+005	1,3575691E+001	1,1823456E-005	3,3143638E-003	2,5233005E-003	5,000000000000000E+001	2,8819244E-004	5,2366686E-006	0	14	2,167281353676584E-009	1,3478070E+001	1,9976204E-004	5,0165615E+001	3,8146778E+001	2,4435707E+001	-2,9292881E+001	-9,7456062E+001	1,8885672E+001	-2,4507141E+000	1,8725986E+001	0,0000000E+000	-8,8772411E-003	1,5854659E-002	1,8170735E-002	1,1924506E+002	0,000000000000000E+000
5,8157570E+001	2,8003008E+000	6,6738033E-001	2,8787291E+000	-1,3404929E+001	9,965932472061217E+005	1,3575520E+001	8,1527987E-006	4,1005347E+003	2,2038686E+002	5,000000000000000E+001	1,3721245E-005	4,7664244E-006	0	14	4,304302185015432E-008	1,3467245E+001	1,5294223E-002	-1,6772093E+001	3,2087415E+003	3,0722422E+003	9,2593201E+002	-1,6769075E+001	3,2116152E+003	3,0750425E+003	9,2659937E+002	0,0000000E+000	3,3791161E-001	8,0532618E-002	3,4737551E-001	1,3404929E+001	5,237424330541921E-009
5,0018891E-003	5,3889820E+001	-7,7469788E+000	5,4443810E+001	8,1805601E+000	9,978997313618660E+005	1,3575764E+001	6,6488706E-006	-4,1072740E+006	-8,3161328E+004	5,000000000000000E+001	2,5949630E-004	4,7663143E-006	0	14	-1,349772057199193E-005	1,3451691E+001	4,2138681E-002	-1,2859341E+001	8,8409365E+003	8,6192002E+003	1,9676240E+003	-1,2733391E+001	8,8917715E+003	8,6730898E+003	1,9598771E+003	0,0000000E+000	1,8180663E-002	-2,6135773E-003	1,8367561E-002	-8,1805601E+000	-2,316529923526872E-005